Folder: Data-Science/RxLog

Note: README.md
# Data-Science

The purpose of this is to store all the projects I will be working on during my journey towards becoming a Data Scientist

Good Luck Me.

On this project, I read data from an excel file ("Insurance.csv"). Then using the data I:
  1. Found the average age
  2. Found the age of of most insured
  3. Region with the most insured
  4. Difference in price between those who smoked and those who didn't

File: Resource0.csv
Date/Time,Battery Remaining,Battery Current,Battery Voltage,Battery Temp,Battery Status,Battery Manufacturing Date,Battery Serial Number,Battery Part Number,Battery Rated Capacity (mAh),Battery Decommission Status,Battery Base Cumulative Charge (mAh),Battery Error Status,Battery Present Capacity (mAh),Battery Health Percentage (%),Battery Percent Decommission Threshold (%),Battery Present Charge (mAh),Battery Total Cumulative Charge (mAh),Battery Secs Since First Use (secs),Battery Time Remaining (mins),Battery Time to Full (mins),Battery Cycles,Ti Temp,Ti SOC,Ti Volt,Ti Current,Qti Temp,Qti SOC,Qti Volt,Qti Current,Charger Type,Screen State,Screen Brightness,Boot Count,Boot Reason,Event Type,Event Details
2023-09-12 10:41:55:389,7,2299226,3697,230,CHARGING,5/24/2023,T6084,BT-000370-50 R.A,6600,0,5559,0,6296,100,80,402,5850,582617,65535,313,0,24,7,3508,2315,230,7,3697970,2299226,,1,255,4,shutdown:battery,Resource Module start,
2023-09-12 10:45:20:673,9,2300446,3773,240,CHARGING,5/24/2023,T6084,BT-000370-50 R.A,6600,0,5633,0,6296,100,80,535,5924,582823,65535,217,0,24,9,3582,2320,240,9,3773291,2300446,,1,255,4,shutdown:battery,Heartbeat,
2023-09-12 10:48:46:148,11,2301667,3787,250,CHARGING,5/24/2023,T6084,BT-000370-50 R.A,6600,0,5792,0,6296,100,80,668,6083,583030,65535,214,0,25,11,3597,2318,250,11,3787889,2301667,,1,255,4,shutdown:battery,Heartbeat,
2023-09-12 10:52:12:257,13,2299836,3804,250,CHARGING,5/24/2023,T6084,BT-000370-50 R.A,6600,0,5952,0,6296,100,80,797,6243,583231,65535,211,0,26,13,3614,2319,250,13,3804237,2299531,,1,255,4,shutdown:battery,Heartbeat,
2023-09-12 10:55:38:250,15,2300446,3825,260,CHARGING,5/24/2023,T6084,BT-000370-50 R.A,6600,0,6332,0,6296,100,80,930,6623,583437,65535,207,0,27,15,3633,2319,260,15,3825452,2301057,,1,255,4,shutdown:battery,Heartbeat,
2023-09-12 10:59:04:368,17,2297700,3847,270,CHARGING,5/24/2023,T6084,BT-000370-50 R.A,6600,0,6492,0,6288,100,80,1048,6783,583644,65535,204,0,27,17,3655,2318,270,17,3847640,2297700,,1,255,4,shutdown:battery,Heartbeat,
2023-09-12 11:02:30:510,19,2299531,3870,270,CHARGING,5/24/2023,T6084,BT-000370-50 R.A,6600,0,6651,0,6288,100,80,1182,6942,583852,65535,201,0,28,19,3678,2318,270,19,3870412,2299531,,1,255,4,shutdown:battery,Heartbeat,
2023-09-12 11:05:56:347,21,2301362,3893,280,CHARGING,5/24/2023,T6084,BT-000370-50 R.A,6600,0,6731,0,6288,100,80,1315,7022,584058,65535,197,0,28,21,3700,2317,280,21,3893183,2301362,,1,255,4,shutdown:battery,Heartbeat,
2023-09-12 11:09:22:385,24,2299531,3907,280,CHARGING,5/24/2023,T6084,BT-000370-50 R.A,6600,0,6891,0,6288,100,80,1448,7182,584265,65535,194,0,29,24,3718,2318,280,24,3907975,2299531,,1,255,4,shutdown:battery,Heartbeat,
2023-09-12 11:12:48:414,26,2298920,3926,290,CHARGING,5/24/2023,T6084,BT-000370-50 R.A,6600,0,7050,0,6288,100,80,1578,7341,584467,65535,190,0,29,26,3733,2316,290,26,3926076,2298920,,1,255,4,shutdown:battery,Heartbeat,
2023-09-12 11:16:14:193,28,2298005,3937,300,CHARGING,5/24/2023,T6084,BT-000370-50 R.A,6600,0,7130,0,6288,100,80,1711,7421,584673,65535,187,0,29,28,3745,2318,300,28,3936391,2296479,,1,255,4,shutdown:battery,Heartbeat,
2023-09-12 11:19:40:260,30,2297089,3949,300,CHARGING,5/24/2023,T6084,BT-000370-50 R.A,6600,0,7290,0,6288,100,80,1843,7581,584879,65535,183,0,30,30,3757,2318,300,30,3949431,2297089,,1,255,4,shutdown:battery,Heartbeat,
2023-09-12 11:23:06:412,32,2294953,3961,300,CHARGING,5/24/2023,T6084,BT-000370-50 R.A,6600,0,7449,0,6290,100,80,1975,7740,585086,65535,180,0,30,32,3769,2316,300,32,3961693,2294953,,1,255,4,shutdown:battery,Heartbeat,
2023-09-12 11:26:32:347,34,2297395,3974,300,CHARGING,5/24/2023,T6084,BT-000370-50 R.A,6600,0,7529,0,6290,100,80,2108,7820,585292,65535,177,0,31,34,3782,2317,300,34,3973760,2298310,,1,255,4,shutdown:battery,Heartbeat,
2023-09-12 11:29:58:583,36,2294953,3988,310,CHARGING,5/24/2023,T6084,BT-000370-50 R.A,6600,0,7689,0,6290,100,80,2238,7980,585494,65535,173,0,31,36,3795,2316,310,36,3988552,2294953,,1,255,4,shutdown:battery,Heartbeat,
2023-09-12 11:33:24:634,38,2294343,4002,310,CHARGING,5/24/2023,T6084,BT-000370-50 R.A,6600,0,7848,0,6290,100,80,2371,8139,585700,65535,170,0,31,38,3809,2318,310,38,4001008,2295258,,1,255,4,shutdown:battery,Heartbeat,
2023-09-12 11:36:50:834,40,2296174,4017,320,CHARGING,5/24/2023,T6084,BT-000370-50 R.A,6600,0,7928,0,6290,100,80,2504,8219,585907,65535,166,0,32,40,3824,2316,320,40,4017941,2296174,,1,255,4,shutdown:battery,Heartbeat,
2023-09-12 11:40:16:687,42,2296479,4034,320,CHARGING,5/24/2023,T6084,BT-000370-50 R.A,6600,0,8088,0,6290,100,80,2637,8379,586115,65535,163,0,32,42,3841,2314,320,42,4034679,2296479,,1,255,4,shutdown:battery,Heartbeat,
2023-09-12 11:43:42:529,45,2294343,4051,320,CHARGING,5/24/2023,T6084,BT-000370-50 R.A,6600,0,8248,0,6290,100,80,2770,8539,586321,65535,160,0,32,45,3859,2317,320,45,4052001,2294343,,1,255,4,shutdown:battery,Heartbeat,
2023-09-12 11:47:08:586,47,2295258,4070,330,CHARGING,5/24/2023,T6084,BT-000370-50 R.A,6600,0,8327,0,6290,100,80,2903,8618,586528,65535,156,0,33,47,3877,2315,330,47,4071075,2294953,,1,255,4,shutdown:battery,Heartbeat,
2023-09-12 11:50:34:425,49,2291291,4087,330,CHARGING,5/24/2023,T6084,BT-000370-50 R.A,6600,0,8487,0,6290,100,80,3034,8778,586731,65535,153,0,33,49,3896,2315,330,49,4087230,2291291,,1,255,4,shutdown:battery,Heartbeat,
2023-09-12 11:54:00:514,51,2293122,4109,330,CHARGING,5/24/2023,T6084,BT-000370-50 R.A,6600,0,8567,0,6290,100,80,3165,8858,586936,65535,149,0,33,51,3915,2313,330,51,4109028,2293122,,1,255,4,shutdown:battery,Heartbeat,
2023-09-12 11:57:26:570,53,2296174,4127,330,CHARGING,5/24/2023,T6084,BT-000370-50 R.A,6600,0,8726,0,6289,100,80,3298,9017,587143,65535,146,0,33,53,3934,2316,330,53,4127713,2296174,,1,255,4,shutdown:battery,Heartbeat,
2023-09-12 12:00:52:706,55,2294343,4146,340,CHARGING,5/24/2023,T6084,BT-000370-50 R.A,6600,0,8886,0,6289,100,80,3431,9177,587350,65535,142,0,33,55,3952,2315,340,55,4146008,2294343,,1,255,4,shutdown:battery,Heartbeat,
2023-09-12 12:04:18:818,57,2297395,4164,340,CHARGING,5/24/2023,T6084,BT-000370-50 R.A,6600,0,8965,0,6289,100,80,3563,9256,587556,65535,139,0,34,57,3970,2314,340,57,4165082,2295869,,1,255,4,shutdown:battery,Heartbeat,
2023-09-12 12:07:44:870,59,2292512,4180,340,CHARGING,5/24/2023,T6084,BT-000370-50 R.A,6600,0,9125,0,6289,100,80,3696,9416,587763,65535,136,0,34,59,3988,2316,340,59,4176370,2268708,,1,255,4,shutdown:battery,Heartbeat,
2023-09-12 12:11:10:828,61,2292817,4198,340,CHARGING,5/24/2023,T6084,BT-000370-50 R.A,6600,0,9284,0,6289,100,80,3825,9575,587964,65535,132,0,34,61,4004,2312,340,61,4198752,2292817,,1,255,4,shutdown:battery,Heartbeat,
2023-09-12 12:14:36:805,63,2230560,4204,340,CHARGING,5/24/2023,T6084,BT-000370-50 R.A,6600,0,9363,0,6289,100,80,3957,9654,588170,65535,130,0,34,63,4016,2252,340,63,4204981,2230560,,1,255,4,shutdown:battery,Heartbeat,
2023-09-12 12:18:02:890,65,2126494,4205,340,CHARGING,5/24/2023,T6084,BT-000370-50 R.A,6600,0,9518,0,6289,100,80,4083,9809,588377,65535,129,0,34,65,4025,2148,340,65,4205175,2128325,,1,255,4,shutdown:battery,Heartbeat,
2023-09-12 12:21:29:008,67,2034024,4205,340,CHARGING,5/24/2023,T6084,BT-000370-50 R.A,6600,0,9664,0,6289,100,80,4204,9955,588583,65535,128,0,34,67,4033,2061,340,67,4205175,2034024,,1,255,4,shutdown:battery,Heartbeat,
2023-09-12 12:24:54:770,69,1940944,4204,340,CHARGING,5/24/2023,T6084,BT-000370-50 R.A,6600,0,9735,0,6289,100,80,4319,10026,588789,65535,127,0,34,69,4041,1961,340,69,4204981,1940944,,1,255,4,shutdown:battery,Heartbeat,
2023-09-12 12:28:20:749,71,1849085,4205,340,CHARGING,5/24/2023,T6084,BT-000370-50 R.A,6600,0,9870,0,6289,100,80,4426,10161,588991,65535,126,0,33,71,4048,1873,340,71,4205565,1853968,,1,255,4,shutdown:battery,Heartbeat,
2023-09-12 12:31:46:791,73,1760278,4204,330,CHARGING,5/24/2023,T6084,BT-000370-50 R.A,6600,0,9997,0,6289,100,80,4531,10288,589198,65535,125,0,33,73,4056,1779,330,73,4204981,1760278,,1,255,4,shutdown:battery,Heartbeat,
2023-09-12 12:35:12:770,74,1663841,4205,330,CHARGING,5/24/2023,T6084,BT-000370-50 R.A,6600,0,10059,0,6289,100,80,4631,10350,589405,65535,125,0,33,74,4064,1682,330,74,4206148,1664451,,1,255,4,shutdown:battery,Heartbeat,
2023-09-12 12:38:38:611,76,1571371,4205,330,CHARGING,5/24/2023,T6084,BT-000370-50 R.A,6600,0,10174,0,6289,100,80,4725,10465,589612,65535,118,0,33,76,4072,1589,330,76,4206148,1571371,,1,255,4,shutdown:battery,Heartbeat,
2023-09-12 12:42:04:629,77,1480123,4206,330,CHARGING,5/24/2023,T6084,BT-000370-50 R.A,6600,0,10282,0,6289,100,80,4813,10573,589819,65535,117,0,33,77,4080,1492,330,77,4206538,1479207,,1,255,4,shutdown:battery,Heartbeat,
2023-09-12 12:45:30:253,78,1388874,4206,320,CHARGING,5/24/2023,T6084,BT-000370-50 R.A,6600,0,10333,0,6289,100,80,4896,10624,590025,65535,111,0,32,78,4088,1404,320,78,4206148,1388874,,1,255,4,shutdown:battery,Heartbeat,
2023-09-12 12:48:56:090,80,1295794,4207,320,CHARGING,5/24/2023,T6084,BT-000370-50 R.A,6600,0,10430,0,6289,100,80,4973,10721,590228,65535,111,0,32,80,4095,1313,320,80,4207122,1295794,,1,255,4,shutdown:battery,Heartbeat,
2023-09-12 12:52:22:255,81,1214921,4206,320,CHARGING,5/24/2023,T6084,BT-000370-50 R.A,6600,0,10519,0,6289,100,80,5046,10810,590435,65535,110,0,32,81,4102,1226,320,81,4206343,1214921,,1,255,4,shutdown:battery,Heartbeat,
2023-09-12 12:55:48:171,82,1140457,4205,310,CHARGING,5/24/2023,T6084,BT-000370-50 R.A,6600,0,10560,0,6289,100,80,5114,10851,590640,65535,104,0,31,82,4108,1150,310,82,4206343,1142593,,1,255,4,shutdown:battery,Heartbeat,
2023-09-12 12:59:14:090,83,1071792,4206,310,CHARGING,5/24/2023,T6084,BT-000370-50 R.A,6600,0,10639,0,6289,100,80,5178,10930,590847,65535,104,1,31,83,4114,1082,310,83,4206732,1071792,,1,255,4,shutdown:battery,Heartbeat,
2023-09-12 13:02:39:956,84,1009840,4206,310,CHARGING,5/24/2023,T6084,BT-000370-50 R.A,6600,0,10713,0,6289,100,80,5237,11004,591049,65535,104,1,31,84,4119,1021,310,84,4206732,1009840,,1,255,4,shutdown:battery,Heartbeat,
2023-09-12 13:06:05:913,85,955518,4207,300,CHARGING,5/24/2023,T6084,BT-000370-50 R.A,6600,0,10747,0,6289,100,80,5293,11038,591254,65535,97,1,30,85,4124,966,300,85,4207316,955518,,1,255,4,shutdown:battery,Heartbeat,
2023-09-12 13:09:32:071,86,906689,4207,300,CHARGING,5/24/2023,T6084,BT-000370-50 R.A,6600,0,10814,0,6280,100,80,5339,11105,591461,65535,96,1,30,86,4129,921,300,86,4206732,903637,,1,255,4,shutdown:battery,Heartbeat,
2023-09-12 13:12:58:248,86,864574,4206,300,CHARGING,5/24/2023,T6084,BT-000370-50 R.A,6600,0,10876,0,6280,100,80,5390,11167,591669,65535,95,1,30,86,4132,868,300,86,4206927,864574,,1,255,4,shutdown:battery,Heartbeat,
2023-09-12 13:16:24:197,87,850536,4206,300,CHARGING,5/24/2023,T6084,BT-000370-50 R.A,6600,0,10905,0,6280,100,80,5439,11196,591875,65535,94,1,30,87,4135,831,300,87,4207511,838634,,1,255,4,shutdown:battery,Heartbeat,
2023-09-12 13:19:39:087,88,795299,4207,300,CHARGING,5/24/2023,T6084,BT-000370-50 R.A,6600,0,10963,0,6280,100,80,5482,11254,592067,65535,88,1,29,88,4138,796,300,88,4207122,795299,,1,255,4,shutdown:battery,Heartbeat,
,,,,,,,,,,,,,,,,,,,,,,,,,,,,,,,,,,,,
,,,,,,,,,,,,,,,,,,,,,,,,,,,,,,,,,,,,
,,,,,,,,,,,,,,,,,,,,,,,,,,,,,,,,,,,,
,,,,,,,,,,,,,,,,,,,,,,,,,,,,,,,,,,,,
,,,,,,,,,,,,,,,,,,,,,,,,,,,,,,,,,,,,
,,,,,,,,,,,,,,,,,,,,,,,,,,,,,,,,,,,,
,,,,,,,,,,,,,,,,,,,,,,,,,,,,,,,,,,,,